Folder: Mech_Props-L-PBF-SDSS

Note: README.md
# Mechanical Properties of LPBF-Built Super Duplex Stainless Steel 2507 (UNS S32750)

This repository hosts the experimental data, images, and analysis notebooks used to study how **laser powder bed fusion (LPBF)** and **subsequent post-processing/heat-treatment steps** affect the mechanical response of **super duplex stainless steel 2507**.

The files here belong to a larger research workflow carried out and are organized so they can be reused in Google Colab or local Jupyter environments.

---

## 1. Scope

- LPBF-built SDSS 2507 (UNS S32750), standard chemistry.
- As-built and several stress-relieved / solution-annealed conditions:
  - `AS` (as-built)
  - `SR400_1h`
  - `SR450_1h`
  - `SR500_1h`
  - `SR550_1h`
  - `SA1100_15min`
- Focus on **hardness, tensile behavior, and microstructural evidence** (EBSD/XRD images).
- Goal: **map post-processing → microstructure → mechanical properties** for LPBF SDSS.

---

## 2. Repository Structure

The repo currently contains (representative list from the root):

- `Hardndess_test_visualization_3_ipynb.ipynb` – Colab/Jupyter notebook for plotting hardness data.
- `Tensile_test_visualization_3_Ni.ipynb` – notebook for reading tensile test outputs and generating stress–strain figures.
- `hardndess_ script` / `Notebook script_tensile test` – helper scripts/notebooks for figure generation.
- `AS.ang.zip`, `SR300.ang.zip`, `SR550.ang.zip`, `SA1100.zip` – EBSD/ANG inputs for crystallographic/microstructural analysis (zipped).
- `XRD datasets/` – XRD-related data for phase/microstructure verification.
- `L-PBF process conditions matrix` – processing parameters used for the printed batches.
- Image assets: `AS.png`, `SR400_1h.png`, `SR450_1h.png`, `SR500_1h.png`, `SR550_1h .png`, `SA1100_15min.png`, `VED_porosity.png`, `micrographs_printing_params.png`, `charpy_fractography.png`, etc.  
  These are mainly for documentation, figure building, or manuscript graphics.

> **Note**: file names reflect the processing condition. Keep this naming when you add new datasets — it makes automated plotting simpler.

---

## 3. How to Use (Google Colab workflow)

1. Open the notebook you want, e.g. **`Hardndess_test_visualization_3_ipynb.ipynb`**.
2. Run it in **Google Colab**.
3. When prompted, **upload your CSV/XLSX** that contains the mechanical data for the selected condition (`AS`, `SR400_1h`, …).
4. The notebook will:
   - clean/standardize column names,
   - generate publication-style plots (thick axes, larger marker size),
   - export `.png` at high resolution for manuscripts.

You can also mount Google Drive in Colab if your data sits there.

_Add this badge at the top if you like:_

```markdown
[![Open In Colab](https://colab.research.google.com/assets/colab-badge.svg)](https://colab.research.google.com/github/mengedagnaw/Mech_Props-L-PBF-SDSS)

File: XRD datasets
         AS		             SR300°C/5h		        SA100°C/15min
   2θ     Intensity       2θ     Intensity     2θ     Intensity
30.02626	1247.01	30.02626	1202.01	30.02626	1414.01
30.50326	1305.87	30.50326	1281.88	30.50326	1468.06
30.98026	1312.77	30.98026	1257.3	30.98026	1512.31
31.45726	1289.93	31.45726	1212.09	31.45726	1478.76
31.93426	1299.56	31.93426	1271.07	31.93426	1473
32.41126	1356.22	32.41126	1217.51	  32.41126	1503.47
32.88826	1276.1	32.88826	1260.84	  32.88826	1549.19
33.36526	1322.08	33.36526	1232.27	33.36526	1473.72
33.84226	1342.86	33.84226	1206.63	33.84226	1508.44
34.31926	1360.33	34.31926	1309.12	  34.31926	1562.11
34.79626	1376.5	34.79626	1263.71	  34.79626	1553.65
35.27326	1387.58	35.27326	1339.85	35.27326	1595.05
35.75026	1443.2	35.75026	1290.28	  35.75026	1604.6
36.22726	1344.41	36.22726	1379.6	36.22726	1665.94
36.70426	1389.08	36.70426	1355.78	36.70426	1585.26
37.18126	1401.44	37.18126	1284.077	  37.18126	1588.83
37.65826	1397.95	37.65826	1339.52	37.65826	1631.31
38.13526	1438.43	38.13526	1317.31	38.13526	1648.54
38.61226	1383.17	38.61226	1353.35	38.61226	1674.63
39.08926	1379.24	39.08926	  1342.68	39.08926	1652.87
39.56626	1448.63	39.56626	1363.06	39.56626	1715.32
40.04326	1450.54	40.04326	1331.8	40.04326	1682.64
40.52026	1401.79	40.52026	1375.69	40.52026	1693.12
40.99726	1433.54	40.99726	1378.15	40.99726	1655.72
41.47426	1410.72	41.47426	1407.16	41.47426	1788.02
41.95126	1524.38	41.95126	1372.01	41.95126	1731.14
42.42826	1490.14	42.42826	1465.39	42.42826	1653.1
42.90526	1497.7	42.90526	1449.73	42.90526	1704.99
43.38226	1551.88	43.38226	1496.62	43.38226	1709.75
43.85926	1469.36	43.85926	1460.26	43.85926	1731.25
44.33626	1548.99	44.33626	1472.38	44.33626	1723.09
44.81326	1564.32	44.81326	1528.87	44.81326	1813.15
45.29026	1562.54	45.29026	1548.74	45.29026	1751.08
45.76726	1591.83	45.76726	1515.72	45.76726	1843.9
46.24426	1546.06	46.24426	1511.27	46.24426	1828.98
46.72126	1659.41	46.72126	1549.29	46.72126	1859.02
47.19826	1606.04	47.19826	1521.85	47.19826	1933.29
47.67526	1572.68	47.67526	1440.02	47.67526	1915.6
48.15226	1677.27	48.15226	1534.34	48.15226	1960.29
48.62926	1578.83	48.62926	1597.21	48.62926	2010.02
49.10626	1594.49	49.10626	1663.96	49.10626	1908.91
49.58326	1659.4	49.58326	1717.06	49.58326	2123.04
50.06026	1777.66	50.06026	1955.39	50.06026	2458.91
50.53726	2364.73	50.53726	3062.24	50.53726	5453.24
51.01426	2529.74	51.01426	3528.61	51.01426	5290.05
51.49126	3033.27	51.49126	3686.78	51.49126	3281.97
51.96826	12094.5	51.96826	19426.2	51.96826	15190.9
52.44526	5578.62	  52.44526	5894.24	52.44526	3786.12
52.92226	2388.77	52.92226	2441.5	52.92226	2338.56
53.39926	1904.22	53.39926	1912.98	53.39926	2162.37
53.87626	1792.59	53.87626	1794.86	53.87626	2084.94
54.35326	1734.82	54.35326	1656.12	54.35326	2031.53
54.83026	1759.18	54.83026	1655.34	54.83026	2081.44
55.30726	1693.31	55.30726	1700.51	55.30726	2058.25
55.78426	1721.51	55.78426	1628.74	55.78426	2117.85
56.26126	1712.33	56.26126	1644.86	56.26126	2076.69
56.73826	1711.44	56.73826	1602.1	56.73826	2091.33
57.21526	1768.92	57.21526	1589.82	57.21526	2149.56
57.69226	1706.88	57.69226	1695.35	57.69226	2145.18
58.16926	1802.61	58.16926	1659.05	58.16926	2264.67
58.64626	1811.8	58.64626	1675.78	58.64626	2628.04
59.12326	1881.58	59.12326	1719.91	59.12326	4684.29
59.60026	1789.88	59.60026	1701.24	59.60026	2767.67
60.07726	1844.53	60.07726	1702.18	60.07726	2203.66
60.55426	1766.09	60.55426	1667.52	60.55426	2076.19
61.03126	1802.73	61.03126	1631.69	61.03126	2020.39
61.50826	1758.83	61.50826	1625.99	61.50826	2023.2
61.98526	1858.07	61.98526	1659.47	61.98526	2033.86
62.46226	1800.96	62.46226	1603.49	62.46226	2005.33
62.93926	1729.29	62.93926	1705.92	62.93926	1969.13
63.41626	1821.54	63.41626	1678.5	63.41626	1934.46
63.89326	1863.89	63.89326	1611.24	63.89326	2043.53
64.37026	1766.61	64.37026	1634.82	64.37026	1882.55
64.84726	1788.3	64.84726	1708.22	64.84726	1992.79
65.32426	1860.93	65.32426	1671.43	65.32426	1996.74
65.80126	1805.95	65.80126	1624.09	65.80126	1977.58
66.27826	1840.28	66.27826	1635.92	66.27826	1905.48
66.75526	1924.3	66.75526	1705.24	66.75526	2003.77
67.23226	1849.24	67.23226	1667.79	67.23226	1974.47
67.70926	1887.33	67.70926	1715.49	67.70926	1943.67
68.18626	1804.72	68.18626	1649.8	68.18626	1941.04
68.66326	1961.75	68.66326	1688.48	68.66326	1975.3
69.14026	1858.28	69.14026	1656.99	69.14026	1914.08
69.61726	1863.36	69.61726	1697.59	69.61726	1912.26
70.09426	1890.62	70.09426	1679.87	70.09426	1889.83
70.57126	1890.16	70.57126	1642.79	70.57126	1940.01
71.04826	1856.53	71.04826	1682.12	71.04826	1953.3
71.52526	1859.12	71.52526	1640.59	71.52526	1962.16
72.00226	1866.18	72.00226	1645.87	72.00226	1909.83
72.47926	1843.48	72.47926	1679.71	72.47926	1910.3
72.95626	1890.36	72.95626	1675.6	72.95626	1913.56
73.43326	1857.33	73.43326	1723.39	73.43326	1965.19
73.91026	1845.85	73.91026	1668.84	73.91026	1961.8
74.38726	1805.07	74.38726	1704.635	74.38726	1929.55
74.86426	1848.97	74.86426	1736.93	74.86426	1949.39
75.34126	1912.54	75.34126	1729.57	75.34126	1920.44
75.81826	2145.13	75.81826	1847.46	75.81826	2005.43
76.29526	2477.69	76.29526	2435.61	76.29526	2332.08
76.77226	2639.72	76.77226	2313.89	76.77226	2371.89
77.24926	2304.27	77.24926	1899.23	77.24926	2059.4
77.72626	2061.75	77.72626	1859.83	77.72626	2000.13
78.20326	1941.71	78.20326	1721.43	78.20326	1969.36
78.68026	1889.1	78.68026	1665.78	78.68026	1992.82
79.15726	1912.96	79.15726	1696.9	79.15726	1986.7
79.63426	1904.82	79.63426	1706.37	79.63426	1922.99
80.11126	1899.4	80.11126	1635.31	80.11126	1901.13
80.58826	1909.41	80.58826	1723.49	80.58826	1920.81
81.06526	1896.4	81.06526	1639.48	81.06526	1958.91
81.54226	1886.01	81.54226	1579.71	81.54226	1932.65
82.01926	1851.85	82.01926	1662.01	82.01926	1995.35
82.49626	1824.95	82.49626	1623.659	82.49626	1898.22
82.97326	1879.79	82.97326	1637.98	82.97326	1908.42
83.45026	1915.2	83.45026	1686.94	83.45026	1920.45
83.92726	1923.46	83.92726	1702.85	83.92726	1891.2
84.40426	1886.36	84.40426	1721.15	84.40426	1967.96
84.88126	1897.21	84.88126	1720.63	84.88126	1916.06
85.35826	1921.44	85.35826	1717.95	85.35826	1956.12
85.83526	1863.78	85.83526	1690.39	85.83526	1937.81
86.31226	1951.97	86.31226	1745.09	86.31226	1965.24
86.78926	1920.08	86.78926	1682.55	86.78926	1900.68
87.26626	1876.78	87.26626	1769.33	87.26626	2115.7
87.74326	1940.32	87.74326	1799.07	87.74326	1968.4
88.22026	1933.77	88.22026	1832.49	88.22026	2128.63
88.69726	1953.43	88.69726	1820.03	88.69726	2885.08
89.17426	1919.21	89.17426	1737.07	89.17426	2403.53
89.65126	1914.12	89.65126	1802.22	89.65126	2054.14
90.12826	1860.67	90.12826	1685.59	90.12826	2112.73
90.60526	1893.21	90.60526	1761.23	90.60526	2050.32
91.08226	1926.55	91.08226	1711.61	91.08226	2079.92
91.55926	1837.1	91.55926	1684.67	91.55926	2026.68
92.03626	1880.69	92.03626	1705.45	92.03626	2101.45
92.51326	1872.52	92.51326	1732.01	92.51326	2042
92.99026	1904.66	92.99026	1751.69	92.99026	2058.8
93.46726	1900.98	93.46726	1718.54	93.46726	2012.3
93.94426	1969.96	93.94426	1657.47	93.94426	2034.96
94.42126	1966.66	94.42126	1766.95	94.42126	2009.28
94.89826	1928.98	94.89826	1759.21	94.89826	2069.93
95.37526	1936.19	95.37526	1727.7	95.37526	1885.42
95.85226	1917.58	95.85226	1808.22	95.85226	2023.82
96.32926	1973.2	96.32926	1760.11	96.32926	2024.61
96.80626	2011.01	96.80626	1860.02	96.80626	2009.79
97.28326	1991.95	97.28326	1866.69	97.28326	1999.65
97.76026	2122.3	97.76026	1937.24	97.76026	2103.66
98.23726	2530.97	98.23726	2259.69	98.23726	2186.97
98.71426	4045.86	98.71426	3383.5	98.71426	3159.26
99.19126	4492.24	99.19126	3410.28	99.19126	3032.66
99.66826	2799.47	99.66826	2344.31	99.66826	2187.1
100.145	2207.57	100.145	1892.03	100.145	2068
100.622	2081.9	100.622	1905.81	100.622	2035.09
101.099	1989.44	101.099	1760.47	101.099	1950.08
101.576	1952.65	101.576	1804.57	101.576	1896.7
102.053	2010.72	102.053	1803.71	102.053	1901.65
102.53	1952.75	102.53	1831.2	102.53	2021.72
103.007	1937.01	103.007	1776.39	103.007	1892.47
103.484	1966.2	103.484	1783.43	103.484	1962.33
103.961	1912.22	103.961	1773.63	103.961	1842.38
104.438	1901.3	104.438	1763.6	104.438	1918.25
104.915	1912.4	104.915	1732.13	104.915	1877.56
105.392	1848.5	105.392	1730.38	105.392	1949.46
105.869	1904.34	105.869	1730.68	105.869	1906.78
106.346	1982.41	106.346	1769.15	106.346	1992.83
106.823	1917.65	106.823	1811.72	106.823	1917.82
107.3	1922.53	107.3	1906.25	107.3	1903.17
107.777	1878.54	107.777	1852.89	107.777	1981.24
108.254	1915.5	108.254	1838.03	108.254	2011.84
108.731	1906.7	108.731	1837.06	108.731	2054.88
109.208	1932.73	109.208	1839.67	109.208	2147.27
109.685	1997.1	109.685	1847.58	109.685	2500.8
110.162	1953.97	110.162	1830.43	110.162	2935.71
110.639	1995.76	110.639	1838.74	110.639	2488.68
111.116	1923.36	111.116	1824.92	111.116	2252.42
111.593	1959.595	111.593	1803.3	111.593	2084.24
112.07	1893.47	112.07	1777.39	112.07	2103.25
112.547	1908.36	112.547	1804.59	112.547	2063.34
113.024	1859.85	113.024	1789.5	113.024	2012.59
113.501	1870.17	113.501	1766.86	113.501	1994.76
113.978	1850.32	113.978	1854.26	113.978	2031.6
114.455	1875.34	114.455	1811.68	114.455	1969.77
114.932	1831.72	114.932	1855.46	114.932	1978.71
115.409	1875.67	115.409	1899.27	115.409	2029.7
115.886	1923.91	115.886	1873.07	115.886	2025.88
116.363	1908.69	116.363	1945.63	116.363	1977.04
116.84	1866.53	116.84	1886.68	116.84	2023.64
117.317	1939.09	117.317	1801.99	117.317	2230.92
117.794	1908.36	117.794	1865.33	117.794	2424.34
118.271	1905.87	118.271	1896.8	118.271	2370.59
118.748	1970.17	118.748	1898.27	118.748	2083.7
119.225	1913.15	119.225	1858.35	119.225	2059.49
119.702	1842.5	119.702	1866.4	119.702	2049.44
119.967	1947.49	119.967	1829.23	119.967	2097.66